Abstract An eartip made of conductive rubber that also realizes biopotential electrodes is proposed for a daily-use earphone-based eye gesture input interface. Several prototypes, each with three electrodes to capture electrooculogram (EOG), are implemented on earphones and examined. Experiments with one subject over a 10-day period reveal that all prototypes capture EOG similarly but they differ as regards stability of the baseline and the presence of motion artifacts. Another experiment conducted on a simple eye-controlled application with six subjects shows that the proposed prototype minimizes motion artifacts and offers good performance. Artifacts induced by daily motion while wearing the proposed electrode and eye gesture performance are also measured, and we discuss how to deal with them. We conclude that conductive rubber with mixed Ag filler is the most suitable setup in our experiment.
rubber              0.7497988500850307^^http://www.w3.org/2001/XMLSchema#double           http://dbpedia.org/resource/Natural_rubber        

prototypes                    0.99762822277349^^http://www.w3.org/2001/XMLSchema#double             http://dbpedia.org/resource/Prototype             

electrodes                    0.9999999999998863^^http://www.w3.org/2001/XMLSchema#double           http://dbpedia.org/resource/Electrode             

conductive                    0.9955659604303517^^http://www.w3.org/2001/XMLSchema#double           http://dbpedia.org/resource/Electrical_resistivity_and_conductivity

eye                           0.5850460401189712^^http://www.w3.org/2001/XMLSchema#double           http://dbpedia.org/resource/Human_eye             

conductive                    0.9955659604303517^^http://www.w3.org/2001/XMLSchema#double           http://dbpedia.org/resource/Electrical_resistivity_and_conductivity

interface                     0.9974658592122303^^http://www.w3.org/2001/XMLSchema#double           http://dbpedia.org/resource/User_interface        

electrooculogram              1.0^^http://www.w3.org/2001/XMLSchema#double                          http://dbpedia.org/resource/Electrooculography    

EOG                           1.0^^http://www.w3.org/2001/XMLSchema#double                          http://dbpedia.org/resource/Electrooculography    

prototype                     0.9998460189198283^^http://www.w3.org/2001/XMLSchema#double           http://dbpedia.org/resource/Prototype             

prototypes                    0.99762822277349^^http://www.w3.org/2001/XMLSchema#double             http://dbpedia.org/resource/Prototype             

artifacts                     0.922779540752494^^http://www.w3.org/2001/XMLSchema#double            http://dbpedia.org/resource/Artifact_(archaeology)

eye                           0.5850460401189712^^http://www.w3.org/2001/XMLSchema#double           http://dbpedia.org/resource/Human_eye             

earphones                     0.9999999483171691^^http://www.w3.org/2001/XMLSchema#double           http://dbpedia.org/resource/Headphones            

electrodes                    0.9999999999998863^^http://www.w3.org/2001/XMLSchema#double           http://dbpedia.org/resource/Electrode             

daily motion                  0.9999999997370423^^http://www.w3.org/2001/XMLSchema#double           http://dbpedia.org/resource/Dailymotion           

EOG                           1.0^^http://www.w3.org/2001/XMLSchema#double                          http://dbpedia.org/resource/Electrooculography    

artifacts                     0.922779540752494^^http://www.w3.org/2001/XMLSchema#double            http://dbpedia.org/resource/Artifact_(archaeology)

Artifacts                     0.9966575154998748^^http://www.w3.org/2001/XMLSchema#double           http://dbpedia.org/resource/Artifact_(archaeology)

rubber                        0.7497988500850307^^http://www.w3.org/2001/XMLSchema#double           http://dbpedia.org/resource/Natural_rubber        

electrode                     0.9999999999987494^^http://www.w3.org/2001/XMLSchema#double           http://dbpedia.org/resource/Electrode             

