Abstract An eartip made of conductive rubber that also realizes biopotential electrodes is proposed for a daily-use earphone-based eye gesture input interface. Several prototypes, each with three electrodes to capture electrooculogram (EOG), are implemented on earphones and examined. Experiments with one subject over a 10-day period reveal that all prototypes capture EOG similarly but they differ as regards stability of the baseline and the presence of motion artifacts. Another experiment conducted on a simple eye-controlled application with six subjects shows that the proposed prototype minimizes motion artifacts and offers good performance. Artifacts induced by daily motion while wearing the proposed electrode and eye gesture performance are also measured, and we discuss how to deal with them. We conclude that conductive rubber with mixed Ag filler is the most suitable setup in our experiment.
electrode           0.9999999999987494^^http://www.w3.org/2001/XMLSchema#double           http://dbpedia.org/resource/Electrode             

electrodes                    0.9999999999998863^^http://www.w3.org/2001/XMLSchema#double           http://dbpedia.org/resource/Electrode             

conductive                    0.9955659604303517^^http://www.w3.org/2001/XMLSchema#double           http://dbpedia.org/resource/Electrical_resistivity_and_conductivity

electrodes                    0.9999999999998863^^http://www.w3.org/2001/XMLSchema#double           http://dbpedia.org/resource/Electrode             

rubber                        0.7497988500850307^^http://www.w3.org/2001/XMLSchema#double           http://dbpedia.org/resource/Natural_rubber        

earphones                     0.9999999483171691^^http://www.w3.org/2001/XMLSchema#double           http://dbpedia.org/resource/Headphones            

electrooculogram              1.0^^http://www.w3.org/2001/XMLSchema#double                          http://dbpedia.org/resource/Electrooculography    

EOG                           1.0^^http://www.w3.org/2001/XMLSchema#double                          http://dbpedia.org/resource/Electrooculography    

prototypes                    0.99762822277349^^http://www.w3.org/2001/XMLSchema#double             http://dbpedia.org/resource/Prototype             

eye                           0.5850460401189712^^http://www.w3.org/2001/XMLSchema#double           http://dbpedia.org/resource/Human_eye             

eye                           0.5850460401189712^^http://www.w3.org/2001/XMLSchema#double           http://dbpedia.org/resource/Human_eye             

prototypes                    0.99762822277349^^http://www.w3.org/2001/XMLSchema#double             http://dbpedia.org/resource/Prototype             

artifacts                     0.922779540752494^^http://www.w3.org/2001/XMLSchema#double            http://dbpedia.org/resource/Artifact_(archaeology)

rubber                        0.7497988500850307^^http://www.w3.org/2001/XMLSchema#double           http://dbpedia.org/resource/Natural_rubber        

interface                     0.9974658592122303^^http://www.w3.org/2001/XMLSchema#double           http://dbpedia.org/resource/User_interface        

daily motion                  0.9999999997370423^^http://www.w3.org/2001/XMLSchema#double           http://dbpedia.org/resource/Dailymotion           

artifacts                     0.922779540752494^^http://www.w3.org/2001/XMLSchema#double            http://dbpedia.org/resource/Artifact_(archaeology)

Artifacts                     0.9966575154998748^^http://www.w3.org/2001/XMLSchema#double           http://dbpedia.org/resource/Artifact_(archaeology)

prototype                     0.9998460189198283^^http://www.w3.org/2001/XMLSchema#double           http://dbpedia.org/resource/Prototype             

EOG                           1.0^^http://www.w3.org/2001/XMLSchema#double                          http://dbpedia.org/resource/Electrooculography    

conductive                    0.9955659604303517^^http://www.w3.org/2001/XMLSchema#double           http://dbpedia.org/resource/Electrical_resistivity_and_conductivity

