Abstract Drought - the climatic nemesis of the Great Plains - has long been a topic of concern. With this situation in mind, one might wonder if the United States government ever engaged in efforts geared toward strengthening the region's resistence to this recurring phenomenon. That inquiry is explored here. In so doing, the paper presents an historical sampling of the federal role in drought planning - by the way of legislative and other means - for the period, late 1870's to 1940. Included in the sampling are the J. W. Powell report, dry-land farming, irrigation, shelterbelts, and crop insurance - to name but a few. When these drought planning measures are examined as a unit, it provides a basis for some interpretative observations - summarized in the conclusions. The postscript is a commentary on the concept of a national drought planning policy. Categorized as the precursor to an impact assessment study, this work can serve as a reference point for additional interdisciplinary research not only on the subject of drought planning but also on the manner in which segments of society interact with climate and (as in this case) its varying components. The climatically intense Great Plains, its diversity hidden beneath a cape of perceived sameness, offers an ideal research focus but is but one example. Thus, the way seems clear for geographers, historians, sociologists, political scientists, economists, and others to continue to become increasingly involved in, and make significant contributions to, such climate-related investigations.
interact            0.997070776454868^^http://www.w3.org/2001/XMLSchema#double            http://dbpedia.org/resource/Interaction           

climate                       0.999791358064841^^http://www.w3.org/2001/XMLSchema#double            http://dbpedia.org/resource/Climate_change        

interdisciplinary             1.0^^http://www.w3.org/2001/XMLSchema#double                          http://dbpedia.org/resource/Interdisciplinarity   

drought                       0.9999999993201527^^http://www.w3.org/2001/XMLSchema#double           http://dbpedia.org/resource/Drought               

economists                    0.7959511695303142^^http://www.w3.org/2001/XMLSchema#double           http://dbpedia.org/resource/Economics             

postscript                    0.9999703493188776^^http://www.w3.org/2001/XMLSchema#double           http://dbpedia.org/resource/Postscript            

Drought                       0.9999999994356585^^http://www.w3.org/2001/XMLSchema#double           http://dbpedia.org/resource/Drought               

drought                       0.9999999993201527^^http://www.w3.org/2001/XMLSchema#double           http://dbpedia.org/resource/Drought               

historical                    0.9999899502425018^^http://www.w3.org/2001/XMLSchema#double           http://dbpedia.org/resource/History               

political scientists          0.9929792645055597^^http://www.w3.org/2001/XMLSchema#double           http://dbpedia.org/resource/Political_science     

Great Plains                  0.9999999486615265^^http://www.w3.org/2001/XMLSchema#double           http://dbpedia.org/resource/Great_Plains          

drought                       0.9999999993201527^^http://www.w3.org/2001/XMLSchema#double           http://dbpedia.org/resource/Drought               

region                        0.9999999031595099^^http://www.w3.org/2001/XMLSchema#double           http://dbpedia.org/resource/Region                

United States government      0.999999963442179^^http://www.w3.org/2001/XMLSchema#double            http://dbpedia.org/resource/Federal_government_of_the_United_States

shelterbelts                  1.0^^http://www.w3.org/2001/XMLSchema#double                          http://dbpedia.org/resource/Windbreak             

legislative                   0.9999204820122495^^http://www.w3.org/2001/XMLSchema#double           http://dbpedia.org/resource/Legislation           

geographers                   0.924189296415818^^http://www.w3.org/2001/XMLSchema#double            http://dbpedia.org/resource/Geography             

impact assessment             0.7601820538101113^^http://www.w3.org/2001/XMLSchema#double           http://dbpedia.org/resource/Impact_assessment     

dry-land farming              1.0^^http://www.w3.org/2001/XMLSchema#double                          http://dbpedia.org/resource/Dryland_farming       

federal                       0.962571625675742^^http://www.w3.org/2001/XMLSchema#double            http://dbpedia.org/resource/Federal_government_of_the_United_States

sociologists                  0.9999999996655333^^http://www.w3.org/2001/XMLSchema#double           http://dbpedia.org/resource/Sociology             

irrigation                    0.999993911490837^^http://www.w3.org/2001/XMLSchema#double            http://dbpedia.org/resource/Irrigation            

sampling                      0.9999974183569194^^http://www.w3.org/2001/XMLSchema#double           http://dbpedia.org/resource/Sampling_(statistics) 

cape                          0.4899635749039552^^http://www.w3.org/2001/XMLSchema#double           http://dbpedia.org/resource/Cape                  

society                       0.9999999996632596^^http://www.w3.org/2001/XMLSchema#double           http://dbpedia.org/resource/Society               

crop insurance                1.0^^http://www.w3.org/2001/XMLSchema#double                          http://dbpedia.org/resource/Crop_insurance        

sampling                      0.9999974183569194^^http://www.w3.org/2001/XMLSchema#double           http://dbpedia.org/resource/Sampling_(statistics) 

climatically                  1.0^^http://www.w3.org/2001/XMLSchema#double                          http://dbpedia.org/resource/Climate               

Great Plains                  0.9999999486615265^^http://www.w3.org/2001/XMLSchema#double           http://dbpedia.org/resource/Great_Plains          

drought                       0.9999999993201527^^http://www.w3.org/2001/XMLSchema#double           http://dbpedia.org/resource/Drought               

climatic                      0.9935611648327496^^http://www.w3.org/2001/XMLSchema#double           http://dbpedia.org/resource/Climate_change        

